ALV-5000/E-WIN Data
ALV-5000/EPP-WIN Data
Date :	"21.05.2007"
Time :	"17:49:30"
Samplename : 	""
SampMemo(0) : 	""
SampMemo(1) : 	""
SampMemo(2) : 	""
SampMemo(3) : 	""
SampMemo(4) : 	""
SampMemo(5) : 	""
SampMemo(6) : 	""
SampMemo(7) : 	""
SampMemo(8) : 	""
SampMemo(9) : 	""
Temperature [K] :	     293.49370
Viscosity [cp]  :	       0.89000
Refractive Index:	       1.33200
Wavelength [nm] :	     632.80000
Angle [°]       :	     109.99800
Duration [s]    :	        90
Runs            :	         1
Mode            :	"SINGLE AUTO CH0"
MeanCR0 [kHz]   :	     336.15213
MeanCR1 [kHz]   :	       0.00000

"Correlation"
  1.25000E-004	  7.28444E-001
  2.50000E-004	  8.43168E-001
  3.75000E-004	  8.36317E-001
  5.00000E-004	  8.30909E-001
  6.25000E-004	  8.27043E-001
  7.50000E-004	  8.21455E-001
  8.75000E-004	  8.15350E-001
  1.00000E-003	  8.10667E-001
  1.12500E-003	  8.05025E-001
  1.25000E-003	  7.98661E-001
  1.37500E-003	  7.93856E-001
  1.50000E-003	  7.86671E-001
  1.62500E-003	  7.81162E-001
  1.75000E-003	  7.76828E-001
  1.87500E-003	  7.69475E-001
  2.00000E-003	  7.65397E-001
  2.25000E-003	  7.56773E-001
  2.50000E-003	  7.44969E-001
  2.75000E-003	  7.35229E-001
  3.00000E-003	  7.25696E-001
  3.25000E-003	  7.15797E-001
  3.50000E-003	  7.06531E-001
  3.75000E-003	  6.97902E-001
  4.00000E-003	  6.89295E-001
  4.50000E-003	  6.71857E-001
  5.00000E-003	  6.53523E-001
  5.50000E-003	  6.36133E-001
  6.00000E-003	  6.20936E-001
  6.50000E-003	  6.05305E-001
  7.00000E-003	  5.89784E-001
  7.50000E-003	  5.74718E-001
  8.00000E-003	  5.60999E-001
  9.00000E-003	  5.34090E-001
  1.00000E-002	  5.09699E-001
  1.10000E-002	  4.85252E-001
  1.20000E-002	  4.63302E-001
  1.30000E-002	  4.43460E-001
  1.40000E-002	  4.23497E-001
  1.50000E-002	  4.05655E-001
  1.60000E-002	  3.88211E-001
  1.80000E-002	  3.56412E-001
  2.00000E-002	  3.29524E-001
  2.20000E-002	  3.04818E-001
  2.40000E-002	  2.82560E-001
  2.60000E-002	  2.63682E-001
  2.80000E-002	  2.46109E-001
  3.00000E-002	  2.30855E-001
  3.20000E-002	  2.17572E-001
  3.60000E-002	  1.93919E-001
  4.00000E-002	  1.74907E-001
  4.40000E-002	  1.59846E-001
  4.80000E-002	  1.46599E-001
  5.20000E-002	  1.36371E-001
  5.60000E-002	  1.27537E-001
  6.00000E-002	  1.20236E-001
  6.40000E-002	  1.14293E-001
  7.20000E-002	  1.04102E-001
  8.00000E-002	  9.65022E-002
  8.80000E-002	  9.07387E-002
  9.60000E-002	  8.68213E-002
  1.04000E-001	  8.34371E-002
  1.12000E-001	  8.06402E-002
  1.20000E-001	  7.78560E-002
  1.28000E-001	  7.56247E-002
  1.44000E-001	  7.17982E-002
  1.60000E-001	  6.82409E-002
  1.76000E-001	  6.51044E-002
  1.92000E-001	  6.24680E-002
  2.08000E-001	  5.97711E-002
  2.24000E-001	  5.77307E-002
  2.40000E-001	  5.62110E-002
  2.56000E-001	  5.42695E-002
  2.88000E-001	  5.05964E-002
  3.20000E-001	  4.74367E-002
  3.52000E-001	  4.49887E-002
  3.84000E-001	  4.27903E-002
  4.16000E-001	  4.07829E-002
  4.48000E-001	  3.87905E-002
  4.80000E-001	  3.70855E-002
  5.12000E-001	  3.58072E-002
  5.76000E-001	  3.30627E-002
  6.40000E-001	  3.08600E-002
  7.04000E-001	  2.85109E-002
  7.68000E-001	  2.72074E-002
  8.32000E-001	  2.51840E-002
  8.96000E-001	  2.40209E-002
  9.60000E-001	  2.27817E-002
  1.02400E+000	  2.16991E-002
  1.15200E+000	  1.91345E-002
  1.28000E+000	  1.77119E-002
  1.40800E+000	  1.65765E-002
  1.53600E+000	  1.61424E-002
  1.66400E+000	  1.52613E-002
  1.79200E+000	  1.50134E-002
  1.92000E+000	  1.37526E-002
  2.01600E+000	  1.38591E-002
  2.27200E+000	  1.31612E-002
  2.52800E+000	  1.17975E-002
  2.78400E+000	  1.05637E-002
  3.04000E+000	  1.03408E-002
  3.29600E+000	  1.02363E-002
  3.55200E+000	  1.02774E-002
  3.80800E+000	  9.85380E-003
  4.06400E+000	  9.74258E-003
  4.57600E+000	  9.45993E-003
  5.08800E+000	  8.91816E-003
  5.60000E+000	  8.57933E-003
  6.11200E+000	  8.02289E-003
  6.62400E+000	  8.18121E-003
  7.13600E+000	  7.75712E-003
  7.64800E+000	  7.88520E-003
  8.16000E+000	  7.24850E-003
  9.18400E+000	  7.23994E-003
  1.02080E+001	  7.05260E-003
  1.12320E+001	  7.15799E-003
  1.22560E+001	  7.03710E-003
  1.32800E+001	  6.94262E-003
  1.43040E+001	  6.58951E-003
  1.53280E+001	  6.30206E-003
  1.63520E+001	  5.99390E-003
  1.84000E+001	  5.92326E-003
  2.04480E+001	  5.74869E-003
  2.24960E+001	  5.32415E-003
  2.45440E+001	  5.46826E-003
  2.65920E+001	  5.07035E-003
  2.86400E+001	  5.11765E-003
  3.06880E+001	  5.01389E-003
  3.27360E+001	  5.02352E-003
  3.68320E+001	  4.38602E-003
  4.09280E+001	  4.40844E-003
  4.50240E+001	  3.98538E-003
  4.91200E+001	  3.98998E-003
  5.32160E+001	  3.98936E-003
  5.73120E+001	  4.02629E-003
  6.14080E+001	  4.44084E-003
  6.55040E+001	  4.07083E-003
  7.36960E+001	  3.84418E-003
  8.18880E+001	  3.67121E-003
  9.00800E+001	  3.46876E-003
  9.82720E+001	  3.04289E-003
  1.06464E+002	  2.93582E-003
  1.14656E+002	  2.88095E-003
  1.22848E+002	  2.61163E-003
  1.31040E+002	  2.59119E-003
  1.47424E+002	  2.48027E-003
  1.63808E+002	  1.93914E-003
  1.80192E+002	  1.71503E-003
  1.96576E+002	  1.90256E-003
  2.12960E+002	  1.85755E-003
  2.29344E+002	  1.59131E-003
  2.45728E+002	  1.46610E-003
  2.62112E+002	  1.30173E-003
  2.94880E+002	  1.18256E-003
  3.27648E+002	  1.21502E-003
  3.60416E+002	  1.10401E-003
  3.93184E+002	  9.75838E-004
  4.25952E+002	  8.27916E-004
  4.58720E+002	  5.33822E-004
  4.91488E+002	  5.59700E-004
  5.24256E+002	  4.62200E-004
  5.89792E+002	  4.45437E-004
  6.55328E+002	  3.72053E-004
  7.20864E+002	  4.98352E-004
  7.86400E+002	  3.38859E-004
  8.51936E+002	  2.48518E-004
  9.17472E+002	 -1.89258E-005
  9.83008E+002	 -2.31575E-004
  1.04854E+003	 -1.53908E-004
  1.17962E+003	 -3.30895E-004
  1.31069E+003	 -2.55726E-004
  1.44176E+003	 -3.63968E-004
  1.57283E+003	 -3.62224E-004
  1.70390E+003	 -2.34498E-004
  1.83498E+003	  9.84172E-005
  1.96605E+003	  3.65535E-004
  2.09712E+003	  5.87607E-004
  2.35926E+003	  7.00031E-004
  2.62141E+003	  6.11823E-004
  2.88355E+003	  2.65581E-004
  3.14570E+003	 -5.84755E-005
  3.40784E+003	 -1.11576E-004
  3.66998E+003	 -5.61478E-004
  3.93213E+003	 -7.18037E-004
  4.19427E+003	 -6.92855E-004
  4.71856E+003	 -3.67433E-004
  5.24285E+003	  2.04500E-005
  5.76714E+003	 -3.45263E-004
  6.29142E+003	 -3.96545E-004
  6.81571E+003	 -4.36780E-004
  7.34000E+003	  2.57156E-004
  7.86429E+003	  3.83515E-004
  8.38858E+003	  1.15263E-004
  9.43715E+003	  4.17174E-004
  1.04857E+004	  5.65301E-004
  1.15343E+004	  2.69651E-005
  1.25829E+004	  2.83210E-005
  1.36315E+004	 -3.37329E-004
  1.46800E+004	 -1.25567E-004
  1.57286E+004	 -3.16739E-004
  1.67772E+004	 -8.72407E-004
  1.88743E+004	  4.61789E-005
  2.09715E+004	  7.04508E-004
  2.30686E+004	  7.46582E-004
  2.51658E+004	 -1.42001E-004
  2.72629E+004	 -7.83169E-004
  2.93601E+004	 -2.57049E-004
  3.14572E+004	  5.03136E-004

"Count Rate"
       0.35156	     313.40472
       0.70313	     349.21533
       1.05469	     311.24249
       1.40625	     329.96005
       1.75781	     320.99814
       2.10938	     313.44171
       2.46094	     336.63736
       2.81250	     330.73676
       3.16406	     307.07449
       3.51563	     340.07990
       3.86719	     333.15787
       4.21875	     346.16827
       4.57031	     333.11804
       4.92188	     335.25467
       5.27344	     321.10056
       5.62500	     318.11041
       5.97656	     325.22873
       6.32813	     314.91827
       6.67969	     308.59659
       7.03125	     324.78207
       7.38281	     326.66550
       7.73438	     340.51801
       8.08594	     331.54474
       8.43750	     344.13693
       8.78906	     304.38876
       9.14063	     304.17822
       9.49219	     352.21970
       9.84375	     361.06778
      10.19531	     373.55185
      10.54688	     344.48117
      10.89844	     312.28662
      11.25000	     342.06003
      11.60156	     308.67911
      11.95313	     315.21985
      12.30469	     306.87534
      12.65625	     341.38861
      13.00781	     315.62384
      13.35938	     311.23962
      13.71094	     312.65646
      14.06250	     310.42310
      14.41406	     304.39731
      14.76563	     336.65445
      15.11719	     349.53113
      15.46875	     391.53824
      15.82031	     364.18881
      16.17188	     311.59811
      16.52344	     301.18524
      16.87500	     302.07004
      17.22656	     314.42041
      17.57813	     354.97940
      17.92969	     409.93433
      18.28125	     367.58865
      18.63281	     325.73514
      18.98438	     344.75714
      19.33594	     345.88092
      19.68750	     324.01389
      20.03906	     358.44180
      20.39063	     348.88531
      20.74219	     351.36902
      21.09375	     315.99939
      21.44531	     329.83487
      21.79688	     312.64795
      22.14844	     320.48035
      22.50000	     311.39612
      22.85156	     318.92410
      23.20313	     323.74362
      23.55469	     320.81607
      23.90625	     323.74362
      24.25781	     307.64633
      24.60938	     329.25732
      24.96094	     318.20432
      25.31250	     341.01874
      25.66406	     376.39975
      26.01563	     342.07425
      26.36719	     348.11145
      26.71875	     344.87378
      27.07031	     325.04095
      27.42188	     338.72278
      27.77344	     366.14337
      28.12500	     355.18707
      28.47656	     349.96643
      28.82813	     352.25668
      29.17969	     310.49139
      29.53125	     312.77881
      29.88281	     346.35321
      30.23438	     336.48090
      30.58594	     322.62552
      30.93750	     357.20990
      31.28906	     331.50491
      31.64063	     331.75528
      31.99219	     319.67520
      32.34375	     316.87567
      32.69531	     344.09424
      33.04688	     338.38138
      33.39844	     333.49359
      33.75000	     306.45996
      34.10156	     320.45758
      34.45313	     327.28000
      34.80469	     321.40500
      35.15625	     330.15634
      35.50781	     335.59039
      35.85938	     310.39465
      36.21094	     324.17322
      36.56250	     315.00934
      36.91406	     319.33948
      37.26563	     316.45746
      37.61719	     363.98398
      37.96875	     330.70261
      38.32031	     350.50699
      38.67188	     361.21289
      39.02344	     306.08441
      39.37500	     351.16418
      39.72656	     357.74762
      40.07813	     337.51648
      40.42969	     339.53363
      40.78125	     361.85303
      41.13281	     349.22672
      41.48438	     393.62082
      41.83594	     370.93726
      42.18750	     366.50467
      42.53906	     359.20999
      42.89063	     320.33240
      43.24219	     311.22540
      43.59375	     310.62509
      43.94531	     303.01746
      44.29688	     331.82925
      44.64844	     361.33240
      45.00000	     368.39380
      45.35156	     330.23318
      45.70313	     308.97498
      46.05469	     312.74182
      46.40625	     313.10883
      46.75781	     317.26260
      47.10938	     336.88773
      47.46094	     330.58881
      47.81250	     329.92307
      48.16406	     330.98425
      48.51563	     342.43274
      48.86719	     322.99536
      49.21875	     330.43518
      49.57031	     360.33948
      49.92188	     355.67075
      50.27344	     349.33481
      50.62500	     342.77414
      50.97656	     324.90155
      51.32813	     365.83893
      51.67969	     325.61282
      52.03125	     338.10541
      52.38281	     353.00778
      52.73438	     316.32373
      53.08594	     336.43253
      53.43750	     338.83374
      53.78906	     328.42941
      54.14063	     319.78046
      54.49219	     321.77768
      54.84375	     308.64780
      55.19531	     319.93979
      55.54688	     312.19843
      55.89844	     344.47833
      56.25000	     333.26031
      56.60156	     310.64786
      56.95313	     311.60095
      57.30469	     312.96658
      57.65625	     327.76367
      58.00781	     318.81314
      58.35938	     322.87872
      58.71094	     336.53210
      59.06250	     365.67108
      59.41406	     406.78769
      59.76563	     358.29956
      60.11719	     347.96921
      60.46875	     352.05753
      60.82031	     310.54260
      61.17188	     336.18216
      61.52344	     340.58630
      61.87500	     418.19064
      62.22656	     341.30609
      62.57813	     329.43372
      62.92969	     318.99240
      63.28125	     340.31033
      63.63281	     339.99454
      63.98438	     360.31955
      64.33594	     347.03601
      64.68750	     336.06268
      65.03906	     357.49158
      65.39063	     342.97046
      65.74219	     310.34628
      66.09375	     329.00980
      66.44531	     349.79004
      66.79688	     362.19727
      67.14844	     316.38632
      67.50000	     327.95428
      67.85156	     314.46878
      68.20313	     363.98111
      68.55469	     394.33777
      68.90625	     358.44180
      69.25781	     326.49478
      69.60938	     337.76401
      69.96094	     349.51974
      70.31250	     358.88849
      70.66406	     344.64618
      71.01563	     321.86588
      71.36719	     347.55383
      71.71875	     321.33102
      72.07031	     317.17441
      72.42188	     373.57462
      72.77344	     328.63712
      73.12500	     324.43213
      73.47656	     316.16727
      73.82813	     334.93887
      74.17969	     322.77631
      74.53125	     342.46118
      74.88281	     369.13065
      75.23438	     315.37350
      75.58594	     347.88669
      75.93750	     387.89374
      76.28906	     345.71024
      76.64063	     322.30972
      76.99219	     334.76532
      77.34375	     337.37424
      77.69531	     352.65500
      78.04688	     336.77963
      78.39844	     352.21402
      78.75000	     349.59656
      79.10156	     352.93948
      79.45313	     322.51172
      79.80469	     343.63904
      80.15625	     340.70010
      80.50781	     341.82388
      80.85938	     331.57318
      81.21094	     334.42392
      81.56250	     341.75278
      81.91406	     335.27744
      82.26563	     336.11957
      82.61719	     333.35419
      82.96875	     341.55078
      83.32031	     326.22736
      83.67188	     359.04782
      84.02344	     331.73819
      84.37500	     337.53925
      84.72656	     336.17648
      85.07813	     336.51218
      85.42969	     357.59967
      85.78125	     365.15613
      86.13281	     354.71194
      86.48438	     334.50644
      86.83594	     359.09903
      87.18750	     329.54184
      87.53906	     367.34113
      87.89063	     332.41248
      88.24219	     353.67068
      88.59375	     332.95020
      88.94531	     341.53085
      89.29688	     342.56076
      89.64844	     340.74847

Monitor Diode	 553759.50

"Cumulant 1.Order"
FluctuationFreq. [1/ms]	 1.6326E+001
DiffCoefficient [µm²/s]	 3.4776E+001
Hydrodyn. Radius [nm]	 6.9424E+000

"Cumulant 2.Order"
FluctuationFreq. [1/ms]	 2.6328E+001
DiffCoefficient [µm²/s]	 5.6080E+001
Hydrodyn. Radius [nm]	 4.3050E+000
Expansion Parameter µ2	 3.1687E+002

"Cumulant 3.Order"
FluctuationFreq. [1/ms]	 2.8590E+001
DiffCoefficient [µm²/s]	 6.0898E+001
Hydrodyn. Radius [nm]	 3.9644E+000
Expansion Parameter µ2	 5.0260E+002
Expansion Parameter µ3	 4.8479E+003

"StandardDeviation"
  1.25000E-004	  1.54545E-003
  2.50000E-004	  1.54686E-003
  3.75000E-004	  1.54834E-003
  5.00000E-004	  1.54972E-003
  6.25000E-004	  1.55116E-003
  7.50000E-004	  1.55266E-003
  8.75000E-004	  1.55405E-003
  1.00000E-003	  1.55556E-003
  1.12500E-003	  1.55126E-003
  1.25000E-003	  1.54977E-003
  1.37500E-003	  1.54878E-003
  1.50000E-003	  1.54863E-003
  1.62500E-003	  1.54872E-003
  1.75000E-003	  1.54878E-003
  1.87500E-003	  1.55057E-003
  2.00000E-003	  1.30930E-003
  2.25000E-003	  1.31610E-003
  2.50000E-003	  1.32670E-003
  2.75000E-003	  1.33693E-003
  3.00000E-003	  1.34822E-003
  3.25000E-003	  1.36104E-003
  3.50000E-003	  1.37419E-003
  3.75000E-003	  1.38723E-003
  4.00000E-003	  1.27677E-003
  4.50000E-003	  1.31009E-003
  5.00000E-003	  1.34958E-003
  5.50000E-003	  1.38952E-003
  6.00000E-003	  1.42558E-003
  6.50000E-003	  1.46424E-003
  7.00000E-003	  1.50335E-003
  7.50000E-003	  1.54201E-003
  8.00000E-003	  1.52839E-003
  9.00000E-003	  1.60010E-003
  1.00000E-002	  1.66657E-003
  1.10000E-002	  1.73229E-003
  1.20000E-002	  1.78977E-003
  1.30000E-002	  1.84013E-003
  1.40000E-002	  1.88935E-003
  1.50000E-002	  1.93140E-003
  1.60000E-002	  1.95280E-003
  1.80000E-002	  2.01910E-003
  2.00000E-002	  2.06945E-003
  2.20000E-002	  2.10965E-003
  2.40000E-002	  2.14006E-003
  2.60000E-002	  2.16074E-003
  2.80000E-002	  2.17550E-003
  3.00000E-002	  2.18418E-003
  3.20000E-002	  2.18117E-003
  3.60000E-002	  2.17945E-003
  4.00000E-002	  2.16910E-003
  4.40000E-002	  2.15386E-003
  4.80000E-002	  2.13473E-003
  5.20000E-002	  2.11559E-003
  5.60000E-002	  2.09573E-003
  6.00000E-002	  2.07673E-003
  6.40000E-002	  2.05466E-003
  7.20000E-002	  2.02002E-003
  8.00000E-002	  1.99033E-003
  8.80000E-002	  1.96515E-003
  9.60000E-002	  1.94641E-003
  1.04000E-001	  1.92931E-003
  1.12000E-001	  1.91431E-003
  1.20000E-001	  1.89883E-003
  1.28000E-001	  1.88093E-003
  1.44000E-001	  1.85702E-003
  1.60000E-001	  1.83372E-003
  1.76000E-001	  1.81199E-003
  1.92000E-001	  1.79259E-003
  2.08000E-001	  1.77217E-003
  2.24000E-001	  1.75585E-003
  2.40000E-001	  1.74342E-003
  2.56000E-001	  1.71978E-003
  2.88000E-001	  1.68764E-003
  3.20000E-001	  1.65774E-003
  3.52000E-001	  1.63342E-003
  3.84000E-001	  1.60998E-003
  4.16000E-001	  1.58811E-003
  4.48000E-001	  1.56566E-003
  4.80000E-001	  1.54537E-003
  5.12000E-001	  1.51905E-003
  5.76000E-001	  1.48360E-003
  6.40000E-001	  1.45367E-003
  7.04000E-001	  1.42090E-003
  7.68000E-001	  1.40111E-003
  8.32000E-001	  1.37010E-003
  8.96000E-001	  1.35133E-003
  9.60000E-001	  1.33062E-003
  1.02400E+000	  1.30001E-003
  1.15200E+000	  1.25356E-003
  1.28000E+000	  1.22540E-003
  1.40800E+000	  1.20177E-003
  1.53600E+000	  1.19106E-003
  1.66400E+000	  1.17307E-003
  1.79200E+000	  1.16642E-003
  1.92000E+000	  1.13856E-003
  2.01600E+000	  1.12757E-003
  2.27200E+000	  1.11079E-003
  2.52800E+000	  1.07781E-003
  2.78400E+000	  1.04585E-003
  3.04000E+000	  1.03858E-003
  3.29600E+000	  1.03553E-003
  3.55200E+000	  1.03503E-003
  3.80800E+000	  1.02410E-003
  4.06400E+000	  1.00857E-003
  4.57600E+000	  1.00038E-003
  5.08800E+000	  9.84219E-004
  5.60000E+000	  9.73482E-004
  6.11200E+000	  9.57114E-004
  6.62400E+000	  9.60082E-004
  7.13600E+000	  9.47144E-004
  7.64800E+000	  9.49445E-004
  8.16000E+000	  9.17860E-004
  9.18400E+000	  9.17789E-004
  1.02080E+001	  9.10891E-004
  1.12320E+001	  9.13552E-004
  1.22560E+001	  9.07622E-004
  1.32800E+001	  9.03942E-004
  1.43040E+001	  8.91330E-004
  1.53280E+001	  8.80487E-004
  1.63520E+001	  8.56845E-004
  1.84000E+001	  8.55886E-004
  2.04480E+001	  8.46939E-004
  2.24960E+001	  8.29956E-004
  2.45440E+001	  8.33127E-004
  2.65920E+001	  8.17557E-004
  2.86400E+001	  8.15950E-004
  3.06880E+001	  8.11912E-004
  3.27360E+001	  7.99910E-004
  3.68320E+001	  7.75907E-004
  4.09280E+001	  7.72028E-004
  4.50240E+001	  7.51560E-004
  4.91200E+001	  7.47417E-004
  5.32160E+001	  7.44939E-004
  5.73120E+001	  7.43319E-004
  6.14080E+001	  7.57125E-004
  6.55040E+001	  7.31229E-004
  7.36960E+001	  7.16369E-004
  8.18880E+001	  7.01655E-004
  9.00800E+001	  6.88271E-004
  9.82720E+001	  6.64173E-004
  1.06464E+002	  6.53437E-004
  1.14656E+002	  6.44738E-004
  1.22848E+002	  6.26936E-004
  1.31040E+002	  6.15173E-004
  1.47424E+002	  5.97902E-004
  1.63808E+002	  5.62350E-004
  1.80192E+002	  5.42483E-004
  1.96576E+002	  5.40349E-004
  2.12960E+002	  5.24908E-004
  2.29344E+002	  3.26319E-004
  2.45728E+002	  3.26319E-004
  2.62112E+002	  3.13463E-004
  2.94880E+002	  3.13463E-004
  3.27648E+002	  3.13463E-004
  3.60416E+002	  3.13463E-004
  3.93184E+002	  3.13463E-004
  4.25952E+002	  3.13463E-004
  4.58720E+002	  3.13463E-004
  4.91488E+002	  3.13463E-004
  5.24256E+002	  3.00555E-004
  5.89792E+002	  3.00555E-004
  6.55328E+002	  3.00555E-004
  7.20864E+002	  3.00555E-004
  7.86400E+002	  3.00555E-004
  8.51936E+002	  3.00555E-004
  9.17472E+002	  3.00555E-004
  9.83008E+002	  3.00555E-004
  1.04854E+003	  2.88862E-004
  1.17962E+003	  2.88862E-004
  1.31069E+003	  2.88862E-004
  1.44176E+003	  2.88862E-004
  1.57283E+003	  2.88862E-004
  1.70390E+003	  2.88862E-004
  1.83498E+003	  2.88862E-004
  1.96605E+003	  2.88862E-004
  2.09712E+003	  2.67504E-004
  2.35926E+003	  2.67504E-004
  2.62141E+003	  2.67504E-004
  2.88355E+003	  2.67504E-004
  3.14570E+003	  2.67504E-004
  3.40784E+003	  2.67504E-004
  3.66998E+003	  2.67504E-004
  3.93213E+003	  2.67504E-004
  4.19427E+003	  2.39449E-004
  4.71856E+003	  2.39449E-004
  5.24285E+003	  2.39449E-004
  5.76714E+003	  2.39449E-004
  6.29142E+003	  2.39449E-004
  6.81571E+003	  2.39449E-004
  7.34000E+003	  2.39449E-004
  7.86429E+003	  2.39449E-004
  8.38858E+003	  1.90209E-004
  9.43715E+003	  1.90209E-004
  1.04857E+004	  1.90209E-004
  1.15343E+004	  1.90209E-004
  1.25829E+004	  1.90209E-004
  1.36315E+004	  1.90209E-004
  1.46800E+004	  1.90209E-004
  1.57286E+004	  1.90209E-004
  1.67772E+004	  1.44406E-004
  1.88743E+004	  1.44406E-004
  2.09715E+004	  1.44406E-004
  2.30686E+004	  1.44406E-004
  2.51658E+004	  1.44406E-004
  2.72629E+004	  1.44406E-004
  2.93601E+004	  1.44406E-004
  3.14572E+004	  1.44406E-004
