ALV-5000/E-WIN Data
ALV-5000/EPP-WIN Data
Date :	"21.05.2007"
Time :	"17:47:17"
Samplename : 	""
SampMemo(0) : 	""
SampMemo(1) : 	""
SampMemo(2) : 	""
SampMemo(3) : 	""
SampMemo(4) : 	""
SampMemo(5) : 	""
SampMemo(6) : 	""
SampMemo(7) : 	""
SampMemo(8) : 	""
SampMemo(9) : 	""
Temperature [K] :	     293.50313
Viscosity [cp]  :	       0.89000
Refractive Index:	       1.33200
Wavelength [nm] :	     632.80000
Angle [°]       :	      69.99800
Duration [s]    :	        90
Runs            :	         1
Mode            :	"SINGLE AUTO CH0"
MeanCR0 [kHz]   :	     407.99548
MeanCR1 [kHz]   :	       0.00000

"Correlation"
  1.25000E-004	  7.28594E-001
  2.50000E-004	  8.47338E-001
  3.75000E-004	  8.46952E-001
  5.00000E-004	  8.44083E-001
  6.25000E-004	  8.43154E-001
  7.50000E-004	  8.40485E-001
  8.75000E-004	  8.38028E-001
  1.00000E-003	  8.36642E-001
  1.12500E-003	  8.34920E-001
  1.25000E-003	  8.32012E-001
  1.37500E-003	  8.28528E-001
  1.50000E-003	  8.27478E-001
  1.62500E-003	  8.25143E-001
  1.75000E-003	  8.22321E-001
  1.87500E-003	  8.20028E-001
  2.00000E-003	  8.17241E-001
  2.25000E-003	  8.13168E-001
  2.50000E-003	  8.07172E-001
  2.75000E-003	  8.02101E-001
  3.00000E-003	  7.98765E-001
  3.25000E-003	  7.94691E-001
  3.50000E-003	  7.89401E-001
  3.75000E-003	  7.86063E-001
  4.00000E-003	  7.81923E-001
  4.50000E-003	  7.73020E-001
  5.00000E-003	  7.64779E-001
  5.50000E-003	  7.56293E-001
  6.00000E-003	  7.47792E-001
  6.50000E-003	  7.40311E-001
  7.00000E-003	  7.33203E-001
  7.50000E-003	  7.24820E-001
  8.00000E-003	  7.18269E-001
  9.00000E-003	  7.03002E-001
  1.00000E-002	  6.88189E-001
  1.10000E-002	  6.74649E-001
  1.20000E-002	  6.60778E-001
  1.30000E-002	  6.47869E-001
  1.40000E-002	  6.34449E-001
  1.50000E-002	  6.22864E-001
  1.60000E-002	  6.10942E-001
  1.80000E-002	  5.88422E-001
  2.00000E-002	  5.66746E-001
  2.20000E-002	  5.46697E-001
  2.40000E-002	  5.27375E-001
  2.60000E-002	  5.09811E-001
  2.80000E-002	  4.92850E-001
  3.00000E-002	  4.76728E-001
  3.20000E-002	  4.61990E-001
  3.60000E-002	  4.34244E-001
  4.00000E-002	  4.09309E-001
  4.40000E-002	  3.87384E-001
  4.80000E-002	  3.67223E-001
  5.20000E-002	  3.49235E-001
  5.60000E-002	  3.33143E-001
  6.00000E-002	  3.18463E-001
  6.40000E-002	  3.05492E-001
  7.20000E-002	  2.82486E-001
  8.00000E-002	  2.63437E-001
  8.80000E-002	  2.47982E-001
  9.60000E-002	  2.34932E-001
  1.04000E-001	  2.24473E-001
  1.12000E-001	  2.15163E-001
  1.20000E-001	  2.07613E-001
  1.28000E-001	  2.01033E-001
  1.44000E-001	  1.90252E-001
  1.60000E-001	  1.82092E-001
  1.76000E-001	  1.75810E-001
  1.92000E-001	  1.70575E-001
  2.08000E-001	  1.66399E-001
  2.24000E-001	  1.62606E-001
  2.40000E-001	  1.59473E-001
  2.56000E-001	  1.56674E-001
  2.88000E-001	  1.51709E-001
  3.20000E-001	  1.47625E-001
  3.52000E-001	  1.43874E-001
  3.84000E-001	  1.40649E-001
  4.16000E-001	  1.37528E-001
  4.48000E-001	  1.35055E-001
  4.80000E-001	  1.33109E-001
  5.12000E-001	  1.30674E-001
  5.76000E-001	  1.25602E-001
  6.40000E-001	  1.20798E-001
  7.04000E-001	  1.16945E-001
  7.68000E-001	  1.12981E-001
  8.32000E-001	  1.09103E-001
  8.96000E-001	  1.06344E-001
  9.60000E-001	  1.04056E-001
  1.02400E+000	  1.00757E-001
  1.15200E+000	  9.58588E-002
  1.28000E+000	  9.13465E-002
  1.40800E+000	  8.74031E-002
  1.53600E+000	  8.41219E-002
  1.66400E+000	  8.10736E-002
  1.79200E+000	  7.87343E-002
  1.92000E+000	  7.58352E-002
  2.01600E+000	  7.42824E-002
  2.27200E+000	  7.11292E-002
  2.52800E+000	  6.70750E-002
  2.78400E+000	  6.47310E-002
  3.04000E+000	  6.15324E-002
  3.29600E+000	  5.91684E-002
  3.55200E+000	  5.74494E-002
  3.80800E+000	  5.56928E-002
  4.06400E+000	  5.38536E-002
  4.57600E+000	  5.04635E-002
  5.08800E+000	  4.89190E-002
  5.60000E+000	  4.68142E-002
  6.11200E+000	  4.47248E-002
  6.62400E+000	  4.32546E-002
  7.13600E+000	  4.19188E-002
  7.64800E+000	  4.01617E-002
  8.16000E+000	  3.92558E-002
  9.18400E+000	  3.81725E-002
  1.02080E+001	  3.60347E-002
  1.12320E+001	  3.33529E-002
  1.22560E+001	  3.22751E-002
  1.32800E+001	  3.09594E-002
  1.43040E+001	  3.04804E-002
  1.53280E+001	  2.83500E-002
  1.63520E+001	  2.68611E-002
  1.84000E+001	  2.34857E-002
  2.04480E+001	  2.15601E-002
  2.24960E+001	  2.02382E-002
  2.45440E+001	  1.90565E-002
  2.65920E+001	  1.68171E-002
  2.86400E+001	  1.58634E-002
  3.06880E+001	  1.58100E-002
  3.27360E+001	  1.40187E-002
  3.68320E+001	  1.27100E-002
  4.09280E+001	  1.05778E-002
  4.50240E+001	  8.63153E-003
  4.91200E+001	  7.45384E-003
  5.32160E+001	  5.86108E-003
  5.73120E+001	  5.95075E-003
  6.14080E+001	  6.04804E-003
  6.55040E+001	  4.64630E-003
  7.36960E+001	  3.80566E-003
  8.18880E+001	  3.32449E-003
  9.00800E+001	  4.83094E-003
  9.82720E+001	  4.66121E-003
  1.06464E+002	  4.02203E-003
  1.14656E+002	  3.94137E-003
  1.22848E+002	  4.97841E-003
  1.31040E+002	  4.07890E-003
  1.47424E+002	  2.98432E-003
  1.63808E+002	  1.83213E-003
  1.80192E+002	  1.92588E-003
  1.96576E+002	  1.37277E-003
  2.12960E+002	  1.45967E-003
  2.29344E+002	  6.58226E-004
  2.45728E+002	  1.24272E-003
  2.62112E+002	  1.13479E-003
  2.94880E+002	  2.00937E-003
  3.27648E+002	  2.17887E-003
  3.60416E+002	  1.98950E-003
  3.93184E+002	  2.93622E-003
  4.25952E+002	  1.42276E-003
  4.58720E+002	  1.29406E-003
  4.91488E+002	  9.73174E-004
  5.24256E+002	  2.49104E-003
  5.89792E+002	  3.38929E-004
  6.55328E+002	 -7.49134E-005
  7.20864E+002	  1.43458E-003
  7.86400E+002	  1.78894E-003
  8.51936E+002	  1.52053E-003
  9.17472E+002	  6.78326E-004
  9.83008E+002	  1.47509E-003
  1.04854E+003	  1.29015E-003
  1.17962E+003	  1.84012E-003
  1.31069E+003	  1.29934E-003
  1.44176E+003	  1.13160E-003
  1.57283E+003	  1.21551E-003
  1.70390E+003	  2.12844E-003
  1.83498E+003	  1.88620E-003
  1.96605E+003	  1.73198E-003
  2.09712E+003	  9.38634E-004
  2.35926E+003	  7.50940E-004
  2.62141E+003	  7.49737E-004
  2.88355E+003	  7.51261E-004
  3.14570E+003	  5.75743E-004
  3.40784E+003	  1.01906E-003
  3.66998E+003	 -1.15334E-003
  3.93213E+003	 -6.92990E-004
  4.19427E+003	 -2.18511E-004
  4.71856E+003	 -2.51708E-004
  5.24285E+003	 -8.35053E-004
  5.76714E+003	 -4.92987E-004
  6.29142E+003	 -4.06958E-004
  6.81571E+003	 -4.06455E-004
  7.34000E+003	 -7.27853E-004
  7.86429E+003	 -3.20577E-004
  8.38858E+003	 -4.20577E-004
  9.43715E+003	 -9.48106E-004
  1.04857E+004	 -5.31264E-004
  1.15343E+004	 -1.01033E-003
  1.25829E+004	 -8.68650E-004
  1.36315E+004	 -4.92161E-004
  1.46800E+004	 -3.16416E-004
  1.57286E+004	 -7.30026E-005
  1.67772E+004	 -6.35689E-004
  1.88743E+004	  7.73370E-004
  2.09715E+004	  1.10103E-003
  2.30686E+004	  6.30906E-004
  2.51658E+004	 -1.02969E-004
  2.72629E+004	 -2.41528E-004
  2.93601E+004	 -7.39853E-004
  3.14572E+004	 -1.00691E-003

"Count Rate"
       0.35156	     396.05051
       0.70313	     351.85837
       1.05469	     359.48309
       1.40625	     403.22000
       1.75781	     423.45685
       2.10938	     394.11871
       2.46094	     448.18884
       2.81250	     378.47665
       3.16406	     369.30136
       3.51563	     392.09589
       3.86719	     512.70880
       4.21875	     472.47131
       4.57031	     453.80780
       4.92188	     435.60236
       5.27344	     430.23373
       5.62500	     349.30637
       5.97656	     398.26395
       6.32813	     421.94327
       6.67969	     366.61563
       7.03125	     409.78070
       7.38281	     436.32782
       7.73438	     370.66129
       8.08594	     365.35812
       8.43750	     390.47134
       8.78906	     350.14566
       9.14063	     384.61340
       9.49219	     389.32764
       9.84375	     368.91443
      10.19531	     390.72458
      10.54688	     360.86865
      10.89844	     467.55222
      11.25000	     410.05383
      11.60156	     376.87204
      11.95313	     390.69043
      12.30469	     371.72250
      12.65625	     426.78839
      13.00781	     366.41080
      13.35938	     368.68115
      13.71094	     387.55804
      14.06250	     426.71158
      14.41406	     370.24307
      14.76563	     350.27939
      15.11719	     380.73846
      15.46875	     359.66803
      15.82031	     380.05847
      16.17188	     494.77365
      16.52344	     387.58932
      16.87500	     531.81616
      17.22656	     478.64221
      17.57813	     440.21133
      17.92969	     380.03857
      18.28125	     447.94415
      18.63281	     521.54266
      18.98438	     517.84979
      19.33594	     419.37988
      19.68750	     419.03848
      20.03906	     389.42154
      20.39063	     431.94077
      20.74219	     369.75656
      21.09375	     398.51147
      21.44531	     386.53665
      21.79688	     391.08304
      22.14844	     429.00467
      22.50000	     362.84595
      22.85156	     404.31537
      23.20313	     378.45956
      23.55469	     366.43924
      23.90625	     383.31607
      24.25781	     370.73242
      24.60938	     380.59619
      24.96094	     408.50610
      25.31250	     407.62698
      25.66406	     376.39407
      26.01563	     434.28223
      26.36719	     460.68713
      26.71875	     438.88553
      27.07031	     421.61041
      27.42188	     382.90353
      27.77344	     388.98624
      28.12500	     423.00449
      28.47656	     385.01172
      28.82813	     402.64532
      29.17969	     357.50864
      29.53125	     395.62659
      29.88281	     405.43347
      30.23438	     374.37408
      30.58594	     358.86856
      30.93750	     404.81323
      31.28906	     392.95224
      31.64063	     397.17145
      31.99219	     378.16937
      32.34375	     401.01227
      32.69531	     457.48074
      33.04688	     363.35522
      33.39844	     397.83148
      33.75000	     362.81180
      34.10156	     408.13910
      34.45313	     371.93304
      34.80469	     397.09464
      35.15625	     429.76715
      35.50781	     422.73703
      35.85938	     477.31073
      36.21094	     374.75815
      36.56250	     415.84918
      36.91406	     504.55774
      37.26563	     448.42212
      37.61719	     477.15143
      37.96875	     443.93832
      38.32031	     469.41574
      38.67188	     441.78464
      39.02344	     449.32684
      39.37500	     402.33237
      39.72656	     452.73236
      40.07813	     525.40344
      40.42969	     499.32001
      40.78125	     412.89886
      41.13281	     413.70685
      41.48438	     460.74402
      41.83594	     443.53433
      42.18750	     411.28287
      42.53906	     398.92685
      42.89063	     429.94070
      43.24219	     352.40747
      43.59375	     412.56885
      43.94531	     454.01550
      44.29688	     395.01773
      44.64844	     401.08908
      45.00000	     453.73666
      45.35156	     377.01712
      45.70313	     461.65729
      46.05469	     421.57626
      46.40625	     342.70300
      46.75781	     376.12378
      47.10938	     392.84128
      47.46094	     401.85724
      47.81250	     396.53131
      48.16406	     452.64417
      48.51563	     409.28851
      48.86719	     356.60675
      49.21875	     428.78278
      49.57031	     363.39505
      49.92188	     365.17035
      50.27344	     434.23389
      50.62500	     376.26605
      50.97656	     377.47803
      51.32813	     361.43481
      51.67969	     370.43939
      52.03125	     383.85947
      52.38281	     367.56018
      52.73438	     370.47638
      53.08594	     394.51132
      53.43750	     376.46518
      53.78906	     429.33472
      54.14063	     391.21106
      54.49219	     442.10327
      54.84375	     349.67053
      55.19531	     464.82382
      55.54688	     402.82739
      55.89844	     392.53403
      56.25000	     363.53445
      56.60156	     458.19772
      56.95313	     466.23495
      57.30469	     378.98306
      57.65625	     425.86945
      58.00781	     393.94516
      58.35938	     436.02911
      58.71094	     375.44382
      59.06250	     365.28131
      59.41406	     403.33096
      59.76563	     475.17410
      60.11719	     373.12509
      60.46875	     401.02365
      60.82031	     412.42657
      61.17188	     422.42407
      61.52344	     381.47247
      61.87500	     364.35953
      62.22656	     384.52237
      62.57813	     354.25674
      62.92969	     493.03531
      63.28125	     391.68051
      63.63281	     366.52744
      63.98438	     451.63419
      64.33594	     489.43347
      64.68750	     380.66449
      65.03906	     449.36383
      65.39063	     415.66425
      65.74219	     358.02643
      66.09375	     421.97742
      66.44531	     427.17532
      66.79688	     440.73480
      67.14844	     415.32285
      67.50000	     384.17242
      67.85156	     367.86746
      68.20313	     399.42471
      68.55469	     371.53473
      68.90625	     422.57486
      69.25781	     390.44861
      69.60938	     370.68689
      69.96094	     504.75977
      70.31250	     425.97186
      70.66406	     406.89865
      71.01563	     375.98438
      71.36719	     487.56143
      71.71875	     385.45554
      72.07031	     424.00024
      72.42188	     339.87219
      72.77344	     367.57727
      73.12500	     462.34009
      73.47656	     372.30005
      73.82813	     500.09103
      74.17969	     400.57413
      74.53125	     412.11649
      74.88281	     429.13269
      75.23438	     415.14362
      75.58594	     435.30078
      75.93750	     417.34000
      76.28906	     431.12708
      76.64063	     460.67575
      76.99219	     416.46939
      77.34375	     444.70364
      77.69531	     370.84622
      78.04688	     475.19687
      78.39844	     543.45807
      78.75000	     428.50681
      79.10156	     381.40704
      79.45313	     404.06784
      79.80469	     440.56125
      80.15625	     451.85324
      80.50781	     429.52533
      80.85938	     391.94510
      81.21094	     385.10843
      81.56250	     443.47458
      81.91406	     409.87457
      82.26563	     411.89456
      82.61719	     415.60736
      82.96875	     409.41653
      83.32031	     393.90250
      83.67188	     385.68030
      84.02344	     377.54630
      84.37500	     411.60153
      84.72656	     381.03433
      85.07813	     392.46573
      85.42969	     372.70972
      85.78125	     387.27921
      86.13281	     372.08383
      86.48438	     349.08444
      86.83594	     457.56610
      87.18750	     378.18643
      87.53906	     463.21637
      87.89063	     333.16641
      88.24219	     349.71606
      88.59375	     407.10065
      88.94531	     364.39651
      89.29688	     373.40106
      89.64844	     385.31329

Monitor Diode	 553623.75

"Cumulant 1.Order"
FluctuationFreq. [1/ms]	 1.2847E+000
DiffCoefficient [µm²/s]	 5.5813E+000
Hydrodyn. Radius [nm]	 4.3258E+001

"Cumulant 2.Order"
FluctuationFreq. [1/ms]	 3.2041E+000
DiffCoefficient [µm²/s]	 1.3920E+001
Hydrodyn. Radius [nm]	 1.7344E+001
Expansion Parameter µ2	 4.1095E+000

"Cumulant 3.Order"
FluctuationFreq. [1/ms]	 5.4742E+000
DiffCoefficient [µm²/s]	 2.3783E+001
Hydrodyn. Radius [nm]	 1.0152E+001
Expansion Parameter µ2	 1.6988E+001
Expansion Parameter µ3	 2.2737E+001

"StandardDeviation"
  1.25000E-004	  2.94935E-003
  2.50000E-004	  2.95028E-003
  3.75000E-004	  2.95119E-003
  5.00000E-004	  2.95213E-003
  6.25000E-004	  2.95306E-003
  7.50000E-004	  2.95398E-003
  8.75000E-004	  2.95491E-003
  1.00000E-003	  2.95584E-003
  1.12500E-003	  2.95348E-003
  1.25000E-003	  2.95159E-003
  1.37500E-003	  2.94962E-003
  1.50000E-003	  2.94859E-003
  1.62500E-003	  2.94721E-003
  1.75000E-003	  2.94577E-003
  1.87500E-003	  2.94458E-003
  2.00000E-003	  2.86008E-003
  2.25000E-003	  2.85971E-003
  2.50000E-003	  2.85925E-003
  2.75000E-003	  2.85919E-003
  3.00000E-003	  2.85925E-003
  3.25000E-003	  2.85963E-003
  3.50000E-003	  2.86050E-003
  3.75000E-003	  2.86113E-003
  4.00000E-003	  2.82012E-003
  4.50000E-003	  2.82278E-003
  5.00000E-003	  2.82682E-003
  5.50000E-003	  2.83188E-003
  6.00000E-003	  2.83786E-003
  6.50000E-003	  2.84384E-003
  7.00000E-003	  2.85002E-003
  7.50000E-003	  2.85820E-003
  8.00000E-003	  2.84476E-003
  9.00000E-003	  2.86161E-003
  1.00000E-002	  2.88167E-003
  1.10000E-002	  2.90162E-003
  1.20000E-002	  2.92379E-003
  1.30000E-002	  2.94575E-003
  1.40000E-002	  2.97005E-003
  1.50000E-002	  2.99183E-003
  1.60000E-002	  3.00560E-003
  1.80000E-002	  3.05017E-003
  2.00000E-002	  3.09701E-003
  2.20000E-002	  3.14179E-003
  2.40000E-002	  3.18579E-003
  2.60000E-002	  3.22609E-003
  2.80000E-002	  3.26526E-003
  3.00000E-002	  3.30237E-003
  3.20000E-002	  3.33184E-003
  3.60000E-002	  3.39240E-003
  4.00000E-002	  3.44625E-003
  4.40000E-002	  3.49111E-003
  4.80000E-002	  3.52985E-003
  5.20000E-002	  3.56196E-003
  5.60000E-002	  3.58836E-003
  6.00000E-002	  3.61027E-003
  6.40000E-002	  3.62583E-003
  7.20000E-002	  3.65063E-003
  8.00000E-002	  3.66697E-003
  8.80000E-002	  3.67595E-003
  9.60000E-002	  3.68037E-003
  1.04000E-001	  3.68127E-003
  1.12000E-001	  3.68018E-003
  1.20000E-001	  3.67768E-003
  1.28000E-001	  3.67301E-003
  1.44000E-001	  3.66459E-003
  1.60000E-001	  3.65642E-003
  1.76000E-001	  3.64844E-003
  1.92000E-001	  3.64056E-003
  2.08000E-001	  3.63346E-003
  2.24000E-001	  3.62655E-003
  2.40000E-001	  3.62019E-003
  2.56000E-001	  3.61199E-003
  2.88000E-001	  3.59975E-003
  3.20000E-001	  3.58879E-003
  3.52000E-001	  3.57818E-003
  3.84000E-001	  3.56815E-003
  4.16000E-001	  3.55860E-003
  4.48000E-001	  3.54992E-003
  4.80000E-001	  3.54247E-003
  5.12000E-001	  3.52956E-003
  5.76000E-001	  3.51041E-003
  6.40000E-001	  3.49146E-003
  7.04000E-001	  3.47425E-003
  7.68000E-001	  3.45607E-003
  8.32000E-001	  3.43733E-003
  8.96000E-001	  3.42269E-003
  9.60000E-001	  3.40960E-003
  1.02400E+000	  3.38836E-003
  1.15200E+000	  3.35992E-003
  1.28000E+000	  3.33145E-003
  1.40800E+000	  3.30453E-003
  1.53600E+000	  3.28058E-003
  1.66400E+000	  3.25756E-003
  1.79200E+000	  3.23779E-003
  1.92000E+000	  3.21386E-003
  2.01600E+000	  3.19229E-003
  2.27200E+000	  3.16470E-003
  2.52800E+000	  3.12797E-003
  2.78400E+000	  3.10321E-003
  3.04000E+000	  3.07058E-003
  3.29600E+000	  3.04633E-003
  3.55200E+000	  3.02499E-003
  3.80800E+000	  3.00398E-003
  4.06400E+000	  2.97599E-003
  4.57600E+000	  2.92992E-003
  5.08800E+000	  2.90331E-003
  5.60000E+000	  2.87213E-003
  6.11200E+000	  2.84036E-003
  6.62400E+000	  2.81507E-003
  7.13600E+000	  2.79005E-003
  7.64800E+000	  2.76106E-003
  8.16000E+000	  2.73329E-003
  9.18400E+000	  2.69845E-003
  1.02080E+001	  2.65340E-003
  1.12320E+001	  2.60152E-003
  1.22560E+001	  2.57035E-003
  1.32800E+001	  2.53289E-003
  1.43040E+001	  2.50889E-003
  1.53280E+001	  2.46308E-003
  1.63520E+001	  2.41185E-003
  1.84000E+001	  2.32463E-003
  2.04480E+001	  2.26334E-003
  2.24960E+001	  2.21120E-003
  2.45440E+001	  2.16091E-003
  2.65920E+001	  2.09412E-003
  2.86400E+001	  2.05525E-003
  3.06880E+001	  2.03574E-003
  3.27360E+001	  1.95695E-003
  3.68320E+001	  1.89595E-003
  4.09280E+001	  1.82423E-003
  4.50240E+001	  1.76410E-003
  4.91200E+001	  1.71452E-003
  5.32160E+001	  1.65246E-003
  5.73120E+001	  1.64230E-003
  6.14080E+001	  1.63478E-003
  6.55040E+001	  1.53548E-003
  7.36960E+001	  1.47542E-003
  8.18880E+001	  1.42848E-003
  9.00800E+001	  1.45218E-003
  9.82720E+001	  1.43100E-003
  1.06464E+002	  1.39050E-003
  1.14656E+002	  1.12085E-003
  1.22848E+002	  1.12085E-003
  1.31040E+002	  1.09611E-003
  1.47424E+002	  1.09611E-003
  1.63808E+002	  1.09611E-003
  1.80192E+002	  1.09611E-003
  1.96576E+002	  1.09611E-003
  2.12960E+002	  1.09611E-003
  2.29344E+002	  1.09611E-003
  2.45728E+002	  1.09611E-003
  2.62112E+002	  1.01929E-003
  2.94880E+002	  1.01929E-003
  3.27648E+002	  1.01929E-003
  3.60416E+002	  1.01929E-003
  3.93184E+002	  1.01929E-003
  4.25952E+002	  1.01929E-003
  4.58720E+002	  1.01929E-003
  4.91488E+002	  1.01929E-003
  5.24256E+002	  9.10518E-004
  5.89792E+002	  9.10518E-004
  6.55328E+002	  9.10518E-004
  7.20864E+002	  9.10518E-004
  7.86400E+002	  9.10518E-004
  8.51936E+002	  9.10518E-004
  9.17472E+002	  9.10518E-004
  9.83008E+002	  9.10518E-004
  1.04854E+003	  7.81873E-004
  1.17962E+003	  7.81873E-004
  1.31069E+003	  7.81873E-004
  1.44176E+003	  7.81873E-004
  1.57283E+003	  7.81873E-004
  1.70390E+003	  7.81873E-004
  1.83498E+003	  7.81873E-004
  1.96605E+003	  7.81873E-004
  2.09712E+003	  6.55494E-004
  2.35926E+003	  6.55494E-004
  2.62141E+003	  6.55494E-004
  2.88355E+003	  6.55494E-004
  3.14570E+003	  6.55494E-004
  3.40784E+003	  6.55494E-004
  3.66998E+003	  6.55494E-004
  3.93213E+003	  6.55494E-004
  4.19427E+003	  5.05005E-004
  4.71856E+003	  5.05005E-004
  5.24285E+003	  5.05005E-004
  5.76714E+003	  5.05005E-004
  6.29142E+003	  5.05005E-004
  6.81571E+003	  5.05005E-004
  7.34000E+003	  5.05005E-004
  7.86429E+003	  5.05005E-004
  8.38858E+003	  3.73784E-004
  9.43715E+003	  3.73784E-004
  1.04857E+004	  3.73784E-004
  1.15343E+004	  3.73784E-004
  1.25829E+004	  3.73784E-004
  1.36315E+004	  3.73784E-004
  1.46800E+004	  3.73784E-004
  1.57286E+004	  3.73784E-004
  1.67772E+004	  2.70207E-004
  1.88743E+004	  2.70207E-004
  2.09715E+004	  2.70207E-004
  2.30686E+004	  2.70207E-004
  2.51658E+004	  2.70207E-004
  2.72629E+004	  2.70207E-004
  2.93601E+004	  2.70207E-004
  3.14572E+004	  2.70207E-004
